#T(K), Kl_SlackLow(W/mK), Kl_SlackSim(W/mK), Kl_CahillLow(W/mK), Cv(J/molK), S(J/molK), S_Debye(J/molK), H(eV), mpf(Âµm)
10.0000 0.0001 139.2069 0.0003 0.0060 0.0030 0.0000 -0.0000 70835.1787
20.0000 0.0005 69.6035 0.0014 0.0238 0.0119 0.0000 -0.0000 141496.9360
30.0000 0.0018 46.4023 0.0031 0.0536 0.0268 0.0001 -0.0000 212245.3852
40.0000 0.0042 34.8017 0.0054 0.0952 0.0476 0.0003 -0.0000 282993.8493
50.0000 0.0081 27.8414 0.0085 0.1488 0.0744 0.0007 -0.0001 353742.5437
60.0000 0.0140 23.2012 0.0123 0.2143 0.1071 0.0012 -0.0001 424490.7705
70.0000 0.0223 19.8867 0.0167 0.2917 0.1458 0.0019 -0.0002 495239.2329
80.0000 0.0332 17.4009 0.0218 0.3810 0.1905 0.0028 -0.0003 565987.6974
90.0000 0.0473 15.4674 0.0276 0.4822 0.2411 0.0040 -0.0004 636736.1379
100.0000 0.0649 13.9207 0.0340 0.5953 0.2976 0.0055 -0.0006 707484.3540
110.0000 0.0864 12.6552 0.0412 0.7203 0.3601 0.0073 -0.0008 778231.1713
120.0000 0.1122 11.6006 0.0490 0.8572 0.4286 0.0094 -0.0011 848971.9524
130.0000 0.1427 10.7082 0.0575 1.0060 0.5030 0.0120 -0.0014 919693.1009
140.0000 0.1782 9.9434 0.0667 1.1667 0.5834 0.0150 -0.0017 990362.9719
150.0000 0.2191 9.2805 0.0766 1.3394 0.6697 0.0184 -0.0021 1060920.1420
160.0000 0.2658 8.7004 0.0871 1.5239 0.7620 0.0223 -0.0025 1131261.4462
170.0000 0.3186 8.1886 0.0984 1.7204 0.8602 0.0268 -0.0030 1201232.7206
180.0000 0.3779 7.7337 0.1103 1.9287 0.9643 0.0318 -0.0036 1270624.6048
190.0000 0.4437 7.3267 0.1229 2.1489 1.0745 0.0374 -0.0042 1339174.4882
200.0000 0.5164 6.9603 0.1361 2.3811 1.1906 0.0437 -0.0049 1406574.3079
210.0000 0.5960 6.6289 0.1501 2.6252 1.3126 0.0506 -0.0057 1472482.8720
220.0000 0.6826 6.3276 0.1647 2.8811 1.4406 0.0582 -0.0066 1536540.8621
230.0000 0.7761 6.0525 0.1799 3.1490 1.5745 0.0666 -0.0075 1598386.6200
240.0000 0.8764 5.8003 0.1958 3.4288 1.7144 0.0758 -0.0085 1657671.1114
250.0000 0.9833 5.5683 0.2123 3.7152 1.8602 0.0859 -0.0096 1716506.4460
260.0000 1.0966 5.3541 0.2295 4.0057 2.0115 0.0968 -0.0108 1775421.0754
270.0000 1.2159 5.1558 0.2473 4.3035 2.1683 0.1087 -0.0121 1832346.1023
280.0000 1.3408 4.9717 0.2657 4.6079 2.3303 0.1215 -0.0135 1887206.7628
290.0000 1.4711 4.8002 0.2846 4.9180 2.4974 0.1354 -0.0150 1939955.8550
300.0000 1.6062 4.6402 0.3041 5.2330 2.6694 0.1504 -0.0166 1990571.3519
310.0000 1.7456 4.4905 0.3242 5.5521 2.8462 0.1665 -0.0183 2039053.4601
320.0000 1.8889 4.3502 0.3448 5.8745 3.0275 0.1838 -0.0201 2085421.4336
330.0000 2.0357 4.2184 0.3659 6.1992 3.2132 0.2023 -0.0220 2129710.3728
340.0000 2.1854 4.0943 0.3874 6.5256 3.4032 0.2221 -0.0240 2171968.1709
350.0000 2.3376 3.9773 0.4095 6.8530 3.5970 0.2432 -0.0261 2212252.7102
360.0000 2.4918 3.8669 0.4320 7.1805 3.7947 0.2655 -0.0283 2250629.3642
370.0000 2.6476 3.7623 0.4548 7.5075 3.9959 0.2893 -0.0306 2287168.8267
380.0000 2.8046 3.6633 0.4781 7.8335 4.2004 0.3144 -0.0331 2321945.2664
390.0000 2.9623 3.5694 0.5018 8.1578 4.4081 0.3409 -0.0356 2355034.7877
400.0000 3.1204 3.4802 0.5258 8.4799 4.6187 0.3689 -0.0383 2386514.1719
410.0000 3.2786 3.3953 0.5502 8.7993 4.8320 0.3983 -0.0410 2416459.8663
420.0000 3.4365 3.3145 0.5749 9.1157 5.0479 0.4292 -0.0439 2444947.1899
430.0000 3.5938 3.2374 0.5998 9.4285 5.2660 0.4616 -0.0469 2472049.7227
440.0000 3.7503 3.1638 0.6251 9.7375 5.4863 0.4955 -0.0500 2497838.8496
450.0000 3.9058 3.0935 0.6506 10.0424 5.7086 0.5308 -0.0532 2522383.4334
460.0000 4.0599 3.0262 0.6764 10.3429 5.9326 0.5677 -0.0565 2545749.5921
470.0000 4.2125 2.9618 0.7023 10.6387 6.1582 0.6061 -0.0600 2568000.5618
480.0000 4.3635 2.9001 0.7285 10.9297 6.3853 0.6459 -0.0635 2589196.6265
490.0000 4.5126 2.8410 0.7549 11.2158 6.6136 0.6873 -0.0671 2609395.1014
500.0000 4.6598 2.7841 0.7815 11.4967 6.8430 0.7301 -0.0709 2628650.3582
510.0000 4.8049 2.7295 0.8082 11.7725 7.0734 0.7744 -0.0747 2647013.8804
520.0000 4.9478 2.6771 0.8351 12.0429 7.3046 0.8202 -0.0787 2664534.3432
530.0000 5.0884 2.6265 0.8621 12.3080 7.5366 0.8674 -0.0828 2681257.7090
540.0000 5.2267 2.5779 0.8893 12.5677 7.7690 0.9161 -0.0869 2697227.3354
550.0000 5.3627 2.5310 0.9166 12.8220 8.0020 0.9662 -0.0912 2712484.0894
560.0000 5.4962 2.4858 0.9440 13.0709 8.2353 1.0177 -0.0956 2727066.4665
570.0000 5.6272 2.4422 0.9714 13.3144 8.4688 1.0706 -0.1000 2741010.7109
580.0000 5.7557 2.4001 0.9990 13.5526 8.7024 1.1249 -0.1046 2754350.9352
590.0000 5.8817 2.3594 1.0267 13.7854 8.9361 1.1805 -0.1092 2767119.2381
600.0000 6.0053 2.3201 1.0544 14.0130 9.1697 1.2374 -0.1140 2779345.8190
610.0000 6.1263 2.2821 1.0822 14.2354 9.4031 1.2957 -0.1189 2791059.0888
620.0000 6.2448 2.2453 1.1101 14.4526 9.6364 1.3552 -0.1238 2802285.7761
630.0000 6.3608 2.2096 1.1380 14.6647 9.8693 1.4160 -0.1288 2813051.0293
640.0000 6.4743 2.1751 1.1660 14.8719 10.1019 1.4781 -0.1340 2823378.5123
650.0000 6.5854 2.1416 1.1940 15.0741 10.3340 1.5414 -0.1392 2833290.4971
660.0000 6.6940 2.1092 1.2220 15.2715 10.5657 1.6058 -0.1445 2842807.9499
670.0000 6.8003 2.0777 1.2501 15.4642 10.7968 1.6715 -0.1499 2851950.6126
680.0000 6.9042 2.0472 1.2782 15.6522 11.0273 1.7383 -0.1554 2860737.0799
690.0000 7.0058 2.0175 1.3063 15.8357 11.2571 1.8062 -0.1610 2869184.8716
700.0000 7.1050 1.9887 1.3345 16.0148 11.4863 1.8752 -0.1666 2877310.4999
710.0000 7.2020 1.9607 1.3626 16.1894 11.7147 1.9453 -0.1724 2885129.5334
720.0000 7.2969 1.9334 1.3908 16.3599 11.9423 2.0164 -0.1782 2892656.6561
730.0000 7.3895 1.9069 1.4190 16.5262 12.1691 2.0886 -0.1841 2899905.7232
740.0000 7.4800 1.8812 1.4471 16.6884 12.3951 2.1618 -0.1901 2906889.8131
750.0000 7.5684 1.8561 1.4753 16.8466 12.6202 2.2360 -0.1961 2913621.2760
760.0000 7.6548 1.8317 1.5035 17.0010 12.8443 2.3111 -0.2023 2920111.7793
770.0000 7.7391 1.8079 1.5317 17.1516 13.0675 2.3871 -0.2085 2926372.3500
780.0000 7.8215 1.7847 1.5599 17.2985 13.2898 2.4641 -0.2148 2932413.4143
790.0000 7.9020 1.7621 1.5881 17.4419 13.5111 2.5420 -0.2212 2938244.8344
800.0000 7.9807 1.7401 1.6162 17.5817 13.7314 2.6207 -0.2276 2943875.9436
810.0000 8.0575 1.7186 1.6444 17.7182 13.9506 2.7003 -0.2342 2949315.5779
820.0000 8.1325 1.6976 1.6725 17.8513 14.1688 2.7807 -0.2408 2954572.1065
830.0000 8.2058 1.6772 1.7007 17.9812 14.3860 2.8620 -0.2474 2959653.4598
840.0000 8.2773 1.6572 1.7288 18.1080 14.6021 2.9440 -0.2542 2964567.1558
850.0000 8.3472 1.6377 1.7569 18.2317 14.8172 3.0268 -0.2610 2969320.3244
860.0000 8.4155 1.6187 1.7850 18.3525 15.0311 3.1103 -0.2679 2973919.7307
870.0000 8.4823 1.6001 1.8131 18.4703 15.2440 3.1946 -0.2748 2978371.7963
880.0000 8.5474 1.5819 1.8411 18.5853 15.4557 3.2795 -0.2819 2982682.6192
890.0000 8.6111 1.5641 1.8692 18.6976 15.6663 3.3652 -0.2889 2986857.9926
900.0000 8.6733 1.5467 1.8972 18.8073 15.8759 3.4515 -0.2961 2990903.4229
910.0000 8.7341 1.5297 1.9252 18.9143 16.0843 3.5385 -0.3033 2994824.1455
920.0000 8.7935 1.5131 1.9532 19.0188 16.2916 3.6261 -0.3106 2998625.1405
930.0000 8.8516 1.4968 1.9811 19.1208 16.4977 3.7144 -0.3180 3002311.1472
940.0000 8.9083 1.4809 2.0091 19.2205 16.7028 3.8032 -0.3254 3005886.6774
950.0000 8.9638 1.4653 2.0370 19.3179 16.9067 3.8926 -0.3328 3009356.0282
960.0000 9.0180 1.4501 2.0649 19.4129 17.1095 3.9826 -0.3404 3012723.2936
970.0000 9.0710 1.4351 2.0928 19.5058 17.3111 4.0732 -0.3480 3015992.3760
980.0000 9.1228 1.4205 2.1206 19.5966 17.5116 4.1643 -0.3556 3019166.9965
990.0000 9.1734 1.4061 2.1485 19.6853 17.7111 4.2559 -0.3634 3022250.7046
1000.0000 9.2229 1.3921 2.1763 19.7719 17.9093 4.3480 -0.3712 3025246.8874
1010.0000 9.2713 1.3783 2.2040 19.8566 18.1065 4.4406 -0.3790 3028158.7784
1020.0000 9.3187 1.3648 2.2318 19.9394 18.3025 4.5337 -0.3869 3030989.4657
1030.0000 9.3650 1.3515 2.2595 20.0203 18.4975 4.6273 -0.3948 3033741.8992
1040.0000 9.4103 1.3385 2.2873 20.0994 18.6913 4.7213 -0.4029 3036418.8984
1050.0000 9.4546 1.3258 2.3150 20.1767 18.8840 4.8158 -0.4109 3039023.1586
1060.0000 9.4979 1.3133 2.3426 20.2523 19.0756 4.9107 -0.4190 3041557.2578
1070.0000 9.5403 1.3010 2.3703 20.3263 19.2661 5.0060 -0.4272 3044023.6620
1080.0000 9.5818 1.2890 2.3979 20.3986 19.4555 5.1017 -0.4355 3046424.7318
1090.0000 9.6225 1.2771 2.4255 20.4693 19.6439 5.1978 -0.4437 3048762.7269
1100.0000 9.6622 1.2655 2.4531 20.5385 19.8311 5.2943 -0.4521 3051039.8114
1110.0000 9.7011 1.2541 2.4806 20.6063 20.0173 5.3912 -0.4605 3053258.0587
1120.0000 9.7392 1.2429 2.5082 20.6725 20.2024 5.4884 -0.4689 3055419.4558
1130.0000 9.7765 1.2319 2.5357 20.7373 20.3864 5.5860 -0.4774 3057525.9075
1140.0000 9.8130 1.2211 2.5632 20.8008 20.5694 5.6839 -0.4860 3059579.2404
1150.0000 9.8487 1.2105 2.5907 20.8629 20.7514 5.7821 -0.4946 3061581.2069
1160.0000 9.8837 1.2001 2.6181 20.9237 20.9323 5.8807 -0.5032 3063533.4884
1170.0000 9.9180 1.1898 2.6455 20.9832 21.1121 5.9795 -0.5119 3065437.6989
1180.0000 9.9515 1.1797 2.6729 21.0415 21.2910 6.0787 -0.5207 3067295.3880
1190.0000 9.9844 1.1698 2.7003 21.0986 21.4688 6.1781 -0.5295 3069108.0442
1200.0000 10.0167 1.1601 2.7277 21.1544 21.6456 6.2778 -0.5383 3070877.0975
1210.0000 10.0482 1.1505 2.7550 21.2092 21.8213 6.3778 -0.5472 3072603.9220
1220.0000 10.0791 1.1410 2.7823 21.2628 21.9961 6.4781 -0.5562 3074289.8390
1230.0000 10.1095 1.1318 2.8096 21.3153 22.1699 6.5786 -0.5651 3075936.1187
1240.0000 10.1392 1.1226 2.8369 21.3668 22.3427 6.6794 -0.5742 3077543.9830
1250.0000 10.1683 1.1137 2.8642 21.4172 22.5145 6.7804 -0.5833 3079114.6075
1260.0000 10.1968 1.1048 2.8914 21.4666 22.6854 6.8816 -0.5924 3080649.1236
1270.0000 10.2248 1.0961 2.9186 21.5151 22.8553 6.9831 -0.6016 3082148.6205
1280.0000 10.2522 1.0876 2.9458 21.5625 23.0242 7.0848 -0.6108 3083614.1469
1290.0000 10.2791 1.0791 2.9730 21.6091 23.1922 7.1867 -0.6200 3085046.7129
1300.0000 10.3055 1.0708 3.0001 21.6547 23.3592 7.2887 -0.6294 3086447.2917
1310.0000 10.3314 1.0626 3.0273 21.6994 23.5254 7.3910 -0.6387 3087816.8213
1320.0000 10.3568 1.0546 3.0544 21.7433 23.6905 7.4935 -0.6481 3089156.2054
1330.0000 10.3816 1.0467 3.0815 21.7863 23.8548 7.5962 -0.6575 3090466.3159
1340.0000 10.4061 1.0389 3.1086 21.8285 24.0182 7.6990 -0.6670 3091747.9932
1350.0000 10.4300 1.0312 3.1356 21.8699 24.1806 7.8020 -0.6765 3093002.0482
1360.0000 10.4535 1.0236 3.1627 21.9105 24.3422 7.9052 -0.6861 3094229.2633
1370.0000 10.4766 1.0161 3.1897 21.9503 24.5028 8.0085 -0.6957 3095430.3937
1380.0000 10.4992 1.0087 3.2167 21.9894 24.6626 8.1120 -0.7054 3096606.1681
1390.0000 10.5215 1.0015 3.2437 22.0277 24.8215 8.2157 -0.7151 3097757.2905
1400.0000 10.5433 0.9943 3.2707 22.0654 24.9795 8.3194 -0.7248 3098884.4405
1410.0000 10.5647 0.9873 3.2977 22.1023 25.1367 8.4234 -0.7346 3099988.2749
1420.0000 10.5857 0.9803 3.3246 22.1386 25.2931 8.5274 -0.7444 3101069.4281
1430.0000 10.6063 0.9735 3.3515 22.1742 25.4485 8.6316 -0.7542 3102128.5133
1440.0000 10.6266 0.9667 3.3784 22.2091 25.6032 8.7359 -0.7641 3103166.1232
1450.0000 10.6465 0.9600 3.4053 22.2434 25.7570 8.8403 -0.7740 3104182.8309
1460.0000 10.6661 0.9535 3.4322 22.2771 25.9100 8.9449 -0.7840 3105179.1906
1470.0000 10.6853 0.9470 3.4591 22.3102 26.0622 9.0495 -0.7940 3106155.7386
1480.0000 10.7041 0.9406 3.4859 22.3427 26.2135 9.1543 -0.8041 3107112.9934
1490.0000 10.7226 0.9343 3.5128 22.3746 26.3641 9.2591 -0.8141 3108051.4569
1500.0000 10.7408 0.9280 3.5396 22.4059 26.5139 9.3641 -0.8243 3108971.6150
1510.0000 10.7587 0.9219 3.5664 22.4367 26.6629 9.4691 -0.8344 3109873.9380
1520.0000 10.7763 0.9158 3.5932 22.4670 26.8110 9.5742 -0.8446 3110758.8812
1530.0000 10.7936 0.9098 3.6199 22.4967 26.9585 9.6794 -0.8549 3111626.8857
1540.0000 10.8105 0.9039 3.6467 22.5259 27.1051 9.7847 -0.8651 3112478.3787
1550.0000 10.8272 0.8981 3.6734 22.5546 27.2510 9.8901 -0.8754 3113313.7740
1560.0000 10.8436 0.8924 3.7002 22.5828 27.3962 9.9956 -0.8858 3114133.4728
1570.0000 10.8597 0.8867 3.7269 22.6106 27.5405 10.1011 -0.8961 3114937.8638
1580.0000 10.8756 0.8811 3.7536 22.6378 27.6842 10.2067 -0.9066 3115727.3239
1590.0000 10.8912 0.8755 3.7803 22.6646 27.8271 10.3123 -0.9170 3116502.2183
1600.0000 10.9065 0.8700 3.8069 22.6910 27.9693 10.4181 -0.9275 3117262.9015
1610.0000 10.9216 0.8646 3.8336 22.7169 28.1107 10.5238 -0.9380 3118009.7171
1620.0000 10.9364 0.8593 3.8603 22.7424 28.2515 10.6297 -0.9486 3118742.9985
1630.0000 10.9510 0.8540 3.8869 22.7674 28.3915 10.7355 -0.9591 3119463.0693
1640.0000 10.9653 0.8488 3.9135 22.7921 28.5308 10.8415 -0.9698 3120170.2432
1650.0000 10.9794 0.8437 3.9401 22.8163 28.6695 10.9475 -0.9804 3120864.8252
1660.0000 10.9933 0.8386 3.9667 22.8401 28.8074 11.0535 -0.9911 3121547.1109
1670.0000 11.0069 0.8336 3.9933 22.8636 28.9447 11.1595 -1.0018 3122217.3876
1680.0000 11.0204 0.8286 4.0199 22.8867 29.0812 11.2656 -1.0126 3122875.9342
1690.0000 11.0336 0.8237 4.0464 22.9094 29.2171 11.3718 -1.0234 3123523.0215
1700.0000 11.0466 0.8189 4.0730 22.9317 29.3523 11.4779 -1.0342 3124158.9129
1710.0000 11.0594 0.8141 4.0995 22.9537 29.4869 11.5842 -1.0450 3124783.8639
1720.0000 11.0720 0.8093 4.1261 22.9753 29.6208 11.6904 -1.0559 3125398.1230
1730.0000 11.0844 0.8047 4.1526 22.9966 29.7541 11.7966 -1.0669 3126001.9316
1740.0000 11.0966 0.8000 4.1791 23.0175 29.8867 11.9029 -1.0778 3126595.5246
1750.0000 11.1086 0.7955 4.2056 23.0382 30.0186 12.0092 -1.0888 3127179.1302
1760.0000 11.1204 0.7909 4.2320 23.0585 30.1500 12.1156 -1.0998 3127752.9701
1770.0000 11.1321 0.7865 4.2585 23.0784 30.2807 12.2219 -1.1108 3128317.2602
1780.0000 11.1435 0.7821 4.2850 23.0981 30.4107 12.3283 -1.1219 3128872.2105
1790.0000 11.1548 0.7777 4.3114 23.1175 30.5402 12.4346 -1.1330 3129418.0250
1800.0000 11.1659 0.7734 4.3379 23.1366 30.6690 12.5410 -1.1442 3129954.9024
1810.0000 11.1769 0.7691 4.3643 23.1554 30.7973 12.6474 -1.1553 3130483.0361
1820.0000 11.1877 0.7649 4.3907 23.1739 30.9249 12.7538 -1.1665 3131002.6141
1830.0000 11.1983 0.7607 4.4171 23.1921 31.0519 12.8602 -1.1778 3131513.8196
1840.0000 11.2088 0.7566 4.4435 23.2100 31.1784 12.9667 -1.1890 3132016.8308
1850.0000 11.2191 0.7525 4.4699 23.2277 31.3042 13.0731 -1.2003 3132511.8214
1860.0000 11.2293 0.7484 4.4963 23.2451 31.4295 13.1795 -1.2116 3132998.9602
1870.0000 11.2393 0.7444 4.5227 23.2623 31.5542 13.2859 -1.2230 3133478.4118
1880.0000 11.2491 0.7405 4.5490 23.2792 31.6783 13.3923 -1.2343 3133950.3367
1890.0000 11.2588 0.7365 4.5754 23.2959 31.8018 13.4988 -1.2457 3134414.8910
1900.0000 11.2684 0.7327 4.6017 23.3123 31.9248 13.6052 -1.2572 3134872.2268
1910.0000 11.2779 0.7288 4.6281 23.3285 32.0472 13.7116 -1.2686 3135322.4924
1920.0000 11.2872 0.7250 4.6544 23.3444 32.1691 13.8180 -1.2801 3135765.8323
1930.0000 11.2963 0.7213 4.6807 23.3601 32.2904 13.9244 -1.2917 3136202.3874
1940.0000 11.3054 0.7176 4.7070 23.3756 32.4111 14.0308 -1.3032 3136632.2948
1950.0000 11.3143 0.7139 4.7333 23.3909 32.5314 14.1371 -1.3148 3137055.6886
1960.0000 11.3231 0.7102 4.7596 23.4059 32.6510 14.2435 -1.3264 3137472.6991
1970.0000 11.3317 0.7066 4.7859 23.4207 32.7702 14.3499 -1.3380 3137883.4536
1980.0000 11.3403 0.7031 4.8122 23.4354 32.8888 14.4562 -1.3497 3138288.0763
1990.0000 11.3487 0.6995 4.8384 23.4498 33.0069 14.5625 -1.3614 3138686.6882
2000.0000 11.3570 0.6960 4.8647 23.4640 33.1245 14.6688 -1.3731 3139079.4073
2010.0000 11.3652 0.6926 4.8909 23.4780 33.2416 14.7751 -1.3848 3139466.3490
2020.0000 11.3732 0.6891 4.9172 23.4918 33.3581 14.8814 -1.3966 3139847.6257
2030.0000 11.3812 0.6857 4.9434 23.5055 33.4742 14.9876 -1.4084 3140223.3470
2040.0000 11.3891 0.6824 4.9696 23.5189 33.5897 15.0938 -1.4202 3140593.6201
2050.0000 11.3968 0.6791 4.9959 23.5322 33.7047 15.2000 -1.4321 3140958.5495
2060.0000 11.4044 0.6758 5.0221 23.5453 33.8193 15.3062 -1.4439 3141318.2371
2070.0000 11.4120 0.6725 5.0483 23.5582 33.9333 15.4124 -1.4559 3141672.7827
2080.0000 11.4194 0.6693 5.0745 23.5709 34.0469 15.5185 -1.4678 3142022.2835
2090.0000 11.4267 0.6661 5.1007 23.5834 34.1600 15.6246 -1.4797 3142366.8344
2100.0000 11.4340 0.6629 5.1268 23.5958 34.2726 15.7307 -1.4917 3142706.5283
2110.0000 11.4411 0.6597 5.1530 23.6081 34.3847 15.8367 -1.5037 3143041.4557
2120.0000 11.4482 0.6566 5.1792 23.6201 34.4964 15.9427 -1.5158 3143371.7052
2130.0000 11.4551 0.6536 5.2053 23.6320 34.6075 16.0487 -1.5278 3143697.3633
2140.0000 11.4620 0.6505 5.2315 23.6438 34.7182 16.1547 -1.5399 3144018.5144
2150.0000 11.4688 0.6475 5.2576 23.6554 34.8285 16.2606 -1.5520 3144335.2411
2160.0000 11.4755 0.6445 5.2838 23.6668 34.9383 16.3665 -1.5641 3144647.6240
2170.0000 11.4821 0.6415 5.3099 23.6781 35.0476 16.4724 -1.5763 3144955.7422
2180.0000 11.4886 0.6386 5.3360 23.6892 35.1565 16.5782 -1.5885 3145259.6725
2190.0000 11.4950 0.6356 5.3622 23.7002 35.2650 16.6840 -1.6007 3145559.4904
2200.0000 11.5013 0.6328 5.3883 23.7111 35.3730 16.7898 -1.6129 3145855.2696
2210.0000 11.5076 0.6299 5.4144 23.7218 35.4805 16.8955 -1.6252 3146147.0820
2220.0000 11.5138 0.6271 5.4405 23.7324 35.5877 17.0012 -1.6375 3146434.9981
2230.0000 11.5199 0.6242 5.4666 23.7428 35.6943 17.1069 -1.6498 3146719.0869
2240.0000 11.5259 0.6215 5.4927 23.7531 35.8006 17.2125 -1.6621 3146999.4156
2250.0000 11.5319 0.6187 5.5188 23.7633 35.9064 17.3181 -1.6745 3147276.0502
2260.0000 11.5378 0.6160 5.5448 23.7734 36.0118 17.4237 -1.6869 3147549.0551
2270.0000 11.5436 0.6132 5.5709 23.7833 36.1168 17.5292 -1.6993 3147818.4935
2280.0000 11.5493 0.6106 5.5970 23.7931 36.2214 17.6346 -1.7117 3148084.4270
2290.0000 11.5550 0.6079 5.6230 23.8028 36.3255 17.7401 -1.7241 3148346.9160
2300.0000 11.5606 0.6052 5.6491 23.8123 36.4293 17.8455 -1.7366 3148606.0195
2310.0000 11.5661 0.6026 5.6751 23.8218 36.5326 17.9508 -1.7491 3148861.7956
2320.0000 11.5715 0.6000 5.7012 23.8311 36.6355 18.0561 -1.7616 3149114.3006
2330.0000 11.5769 0.5975 5.7272 23.8403 36.7380 18.1614 -1.7742 3149363.5901
2340.0000 11.5823 0.5949 5.7533 23.8494 36.8401 18.2666 -1.7867 3149609.7183
2350.0000 11.5875 0.5924 5.7793 23.8584 36.9419 18.3718 -1.7993 3149852.7383
2360.0000 11.5927 0.5899 5.8053 23.8673 37.0432 18.4770 -1.8120 3150092.7021
2370.0000 11.5979 0.5874 5.8313 23.8761 37.1441 18.5821 -1.8246 3150329.6607
2380.0000 11.6029 0.5849 5.8573 23.8848 37.2447 18.6871 -1.8372 3150563.6638
2390.0000 11.6079 0.5825 5.8833 23.8933 37.3448 18.7922 -1.8499 3150794.7603
2400.0000 11.6129 0.5800 5.9094 23.9018 37.4446 18.8971 -1.8626 3151022.9982
2410.0000 11.6178 0.5776 5.9353 23.9102 37.5440 19.0021 -1.8754 3151248.4241
2420.0000 11.6226 0.5752 5.9613 23.9184 37.6431 19.1069 -1.8881 3151471.0841
2430.0000 11.6274 0.5729 5.9873 23.9266 37.7417 19.2118 -1.9009 3151691.0230
2440.0000 11.6321 0.5705 6.0133 23.9347 37.8400 19.3166 -1.9137 3151908.2851
2450.0000 11.6368 0.5682 6.0393 23.9427 37.9379 19.4213 -1.9265 3152122.9134
2460.0000 11.6414 0.5659 6.0653 23.9505 38.0354 19.5260 -1.9393 3152334.9502
2470.0000 11.6460 0.5636 6.0912 23.9583 38.1326 19.6307 -1.9522 3152544.4371
2480.0000 11.6505 0.5613 6.1172 23.9660 38.2294 19.7353 -1.9651 3152751.4146
2490.0000 11.6550 0.5591 6.1431 23.9737 38.3259 19.8399 -1.9780 3152955.9226
2500.0000 11.6594 0.5568 6.1691 23.9812 38.4220 19.9444 -1.9909 3153158.0002
2510.0000 11.6637 0.5546 6.1950 23.9886 38.5177 20.0488 -2.0038 3153357.6857
2520.0000 11.6680 0.5524 6.2210 23.9960 38.6131 20.1533 -2.0168 3153555.0165
2530.0000 11.6723 0.5502 6.2469 24.0033 38.7082 20.2576 -2.0298 3153750.0295
2540.0000 11.6765 0.5481 6.2729 24.0105 38.8029 20.3620 -2.0428 3153942.7608
2550.0000 11.6807 0.5459 6.2988 24.0176 38.8972 20.4662 -2.0558 3154133.2458
2560.0000 11.6848 0.5438 6.3247 24.0246 38.9913 20.5705 -2.0689 3154321.5191
2570.0000 11.6888 0.5417 6.3506 24.0315 39.0849 20.6746 -2.0820 3154507.6148
2580.0000 11.6929 0.5396 6.3766 24.0384 39.1783 20.7788 -2.0950 3154691.5664
2590.0000 11.6969 0.5375 6.4025 24.0452 39.2713 20.8829 -2.1082 3154873.4065
2600.0000 11.7008 0.5354 6.4284 24.0519 39.3640 20.9869 -2.1213 3155053.1673
2610.0000 11.7047 0.5334 6.4543 24.0586 39.4563 21.0909 -2.1345 3155230.8803
2620.0000 11.7085 0.5313 6.4802 24.0652 39.5483 21.1948 -2.1476 3155406.5765
2630.0000 11.7123 0.5293 6.5061 24.0717 39.6400 21.2987 -2.1608 3155580.2862
2640.0000 11.7161 0.5273 6.5320 24.0781 39.7314 21.4025 -2.1740 3155752.0392
2650.0000 11.7198 0.5253 6.5579 24.0845 39.8224 21.5063 -2.1873 3155921.8647
